onset	duration	trial_idx	condition	day	rep	tested	wordID	picID	word	pic	run	real_onsest	pic_rating	rating_RT	cat_group	exp_phase	rounded_onset
0.0086751	4	OLD3_R_09	OLD3_R	O	3	R	word38	object22	qqdive	qqPaintbrush_A	2	0.0086751	1	1.8711	OFS	D1S	0
10.1421	4	OLD3_R_18	OLD3_R	O	3	R	word13	object33	qqbuy	qqTraffic_Cone_A	2	10.1421	1	1.6274	OFS	D1S	10
20.1454	4	OLD3_R_13	OLD3_R	O	3	R	word65	object32	qqimitate	qqToothbrush_A	2	20.1454	1	2.1184	OFS	D1S	20
30.133	4	OLD1_R_14	OLD1_R	O	1	R	word80	face30	qqmarry	qqKanye_West_A	2	30.133	1	2.3343	OFS	D1S	30
40.132	4	OLD3_R_06	OLD3_R	O	3	R	word86	object27	qqnurture	qqRolling_Pin_A	2	40.132	1	1.9917	OFS	D1S	40
50.1387	4	OLD3_R_13	OLD3_R	O	3	R	word65	object32	qqimitate	qqToothbrush_A	2	50.1387	1	1.5981	OFS	D1S	50
60.1296	4	OLD3_R_07	OLD3_R	O	3	R	word74	object15	qqkiss	qqIron_A	2	60.1296	1	1.7091	OFS	D1S	60
70.146	4	OLD3_R_01	OLD3_R	O	3	R	word25	object36	qqcrave	qqWater_Gun_A	2	70.146	1	2.3056	OFS	D1S	70
80.1325	4	OLD3_R_17	OLD3_R	O	3	R	word21	object19	qqcommand	qqMegaphone_A	2	80.1325	4	2.2066	OFS	D1S	80
90.1315	4	OLD3_R_18	OLD3_R	O	3	R	word13	object33	qqbuy	qqTraffic_Cone_A	2	90.1315	1	1.1609	OFS	D1S	90
100.1263	4	OLD1_R_11	OLD1_R	O	1	R	word143	face15	qqyell	qqSofia_Vergara_A	2	100.1263	2	3.3434	OFS	D1S	100
110.1427	4	OLD3_R_10	OLD3_R	O	3	R	word14	object28	qqcarve	qqScrew_A	2	110.1427	3	2.347	OFS	D1S	110
120.1445	4	OLD3_R_16	OLD3_R	O	3	R	word58	object20	qqgrill	qqMicrophone_A	2	120.1445	1	1.682	OFS	D1S	120
130.1444	4	OLD3_R_14	OLD3_R	O	3	R	word91	object34	qqpinch	qqWalkie_Talkie_A	2	130.1444	1	1.7293	OFS	D1S	130
140.1441	4	OLD3_R_08	OLD3_R	O	3	R	word132	object14	qqupdate	qqiPhone_A	2	140.1441	3	2.3934	OFS	D1S	140
150.1423	4	OLD1_R_02	OLD1_R	O	1	R	word53	face06	qqfly	qqJulianne_Moore_A	2	150.1423	1	2.1838	OFS	D1S	150
160.1453	4	OLD3_R_08	OLD3_R	O	3	R	word132	object14	qqupdate	qqiPhone_A	2	160.1453	3	2.474	OFS	D1S	160
170.1315	4	OLD1_R_04	OLD1_R	O	1	R	word27	face26	qqcritique	qqGeorge_Clooney_A	2	170.1315	2	2.6377	OFS	D1S	170
180.1432	4	OLD3_R_18	OLD3_R	O	3	R	word13	object33	qqbuy	qqTraffic_Cone_A	2	180.1432	1	1.1715	OFS	D1S	180
190.144	4	OLD3_R_16	OLD3_R	O	3	R	word58	object20	qqgrill	qqMicrophone_A	2	190.144	1	1.2465	OFS	D1S	190
200.1423	4	OLD3_R_05	OLD3_R	O	3	R	word140	object12	qqwipe	qqHand_Cuffs_A	2	200.1423	1	2.1686	OFS	D1S	200
210.1458	4	OLD3_R_01	OLD3_R	O	3	R	word25	object36	qqcrave	qqWater_Gun_A	2	210.1458	1	2.058	OFS	D1S	210
220.1492	4	OLD1_R_03	OLD1_R	O	1	R	word134	face32	qqvote	qqMatt_Damon_A	2	220.1492	2	2.5801	OFS	D1S	220
230.1428	4	OLD3_R_11	OLD3_R	O	3	R	word126	object04	qqthrow	qqBottle_A	2	230.1428	2	2.6144	OFS	D1S	230
240.1444	4	OLD1_R_10	OLD1_R	O	1	R	word37	face23	qqdiscover	qqBruce_Willis_A	2	240.1444	2	2.658	OFS	D1S	240
250.1424	4	OLD3_R_05	OLD3_R	O	3	R	word140	object12	qqwipe	qqHand_Cuffs_A	2	250.1424	1	1.2136	OFS	D1S	250
260.1457	4	OLD3_R_10	OLD3_R	O	3	R	word14	object28	qqcarve	qqScrew_A	2	260.1457	3	2.7644	OFS	D1S	260
270.1435	4	OLD3_R_07	OLD3_R	O	3	R	word74	object15	qqkiss	qqIron_A	2	270.1435	1	1.4172	OFS	D1S	270
280.1487	4	OLD1_R_01	OLD1_R	O	1	R	word31	face24	qqdebate	qqDaniel_Radcliffe_A	2	280.1487	1	2.7986	OFS	D1S	280
290.1303	4	OLD3_R_04	OLD3_R	O	3	R	word33	object26	qqdecorate	qqRazor_A	2	290.1303	2	3.4949	OFS	D1S	290
300.1422	4	OLD1_R_13	OLD1_R	O	1	R	word02	face05	qqactivate	qqJennifer_Lopez_A	2	300.1422	3	3.7466	OFS	D1S	300
310.1292	4	OLD3_R_05	OLD3_R	O	3	R	word140	object12	qqwipe	qqHand_Cuffs_A	2	310.1292	1	1.7727	OFS	D1S	310
320.1322	4	OLD3_R_15	OLD3_R	O	3	R	word94	object16	qqprint	qqKeys_A	2	320.1322	1	2.0974	OFS	D1S	320
330.1465	4	OLD3_R_10	OLD3_R	O	3	R	word14	object28	qqcarve	qqScrew_A	2	330.1465	3	1.73	OFS	D1S	330
340.1385	4	OLD3_R_12	OLD3_R	O	3	R	word119	object30	qqsqueak	qqTape_A	2	340.1385	2	2.6084	OFS	D1S	340
350.1416	4	OLD3_R_11	OLD3_R	O	3	R	word126	object04	qqthrow	qqBottle_A	2	350.1416	2	2.1371	OFS	D1S	350
360.1456	4	OLD1_R_06	OLD1_R	O	1	R	word70	face02	qqinterview	qqBeyonce_A	2	360.1456	2	3.2217	OFS	D1S	360
370.1455	4	OLD3_R_03	OLD3_R	O	3	R	word41	object06	qqdrop	qqCalculator_A	2	370.1455	1	2.3076	OFS	D1S	370
380.1454	4	OLD3_R_06	OLD3_R	O	3	R	word86	object27	qqnurture	qqRolling_Pin_A	2	380.1454	1	1.6366	OFS	D1S	380
390.1462	4	OLD3_R_14	OLD3_R	O	3	R	word91	object34	qqpinch	qqWalkie_Talkie_A	2	390.1462	1	1.509	OFS	D1S	390
400.1564	4	OLD3_R_09	OLD3_R	O	3	R	word38	object22	qqdive	qqPaintbrush_A	2	400.1564	1	1.3692	OFS	D1S	400
410.1451	4	OLD1_R_18	OLD1_R	O	1	R	word18	face12	qqchill	qqOprah_Winfrey_A	2	410.1451	2	2.7155	OFS	D1S	410
420.1455	4	OLD3_R_02	OLD3_R	O	3	R	word43	object08	qqeat	qqEraser_A	2	420.1455	1	1.9841	OFS	D1S	420
430.1523	4	OLD1_R_16	OLD1_R	O	1	R	word11	face07	qqbribe	qqKeira_Knightly_A	2	430.1523	1	3.0482	OFS	D1S	430
440.1447	4	OLD3_R_02	OLD3_R	O	3	R	word43	object08	qqeat	qqEraser_A	2	440.1447	1	1.2637	OFS	D1S	440
450.1448	4	OLD1_R_09	OLD1_R	O	1	R	word47	face11	qqexercise	qqNicole_Kidman_A	2	450.1448	2	2.9651	OFS	D1S	450
460.1454	4	OLD1_R_17	OLD1_R	O	1	R	word118	face18	qqspy	qqTyra_Banks_A	2	460.1454	1	2.7149	OFS	D1S	460
470.1318	4	OLD3_R_03	OLD3_R	O	3	R	word41	object06	qqdrop	qqCalculator_A	2	470.1318	1	1.2474	OFS	D1S	470
480.1523	4	OLD1_R_15	OLD1_R	O	1	R	word122	face20	qqsurround	qqAlec_Baldwin_A	2	480.1523	2	3.1383	OFS	D1S	480
490.1519	4	OLD3_R_16	OLD3_R	O	3	R	word58	object20	qqgrill	qqMicrophone_A	2	490.1519	1	1.1395	OFS	D1S	490
500.1423	4	OLD3_R_09	OLD3_R	O	3	R	word38	object22	qqdive	qqPaintbrush_A	2	500.1423	1	1.4752	OFS	D1S	500
510.1457	4	OLD3_R_02	OLD3_R	O	3	R	word43	object08	qqeat	qqEraser_A	2	510.1457	1	1.1152	OFS	D1S	510
520.149	4	OLD3_R_12	OLD3_R	O	3	R	word119	object30	qqsqueak	qqTape_A	2	520.149	2	1.8542	OFS	D1S	520
530.1528	4	OLD3_R_15	OLD3_R	O	3	R	word94	object16	qqprint	qqKeys_A	2	530.1528	1	1.3073	OFS	D1S	530
540.1386	4	OLD1_R_05	OLD1_R	O	1	R	word93	face19	qqpray	qqAdam_Levine_A	2	540.1386	2	3.7757	OFS	D1S	540
550.1595	4	OLD3_R_06	OLD3_R	O	3	R	word86	object27	qqnurture	qqRolling_Pin_A	2	550.1595	1	1.1324	OFS	D1S	550
560.1609	4	OLD3_R_04	OLD3_R	O	3	R	word33	object26	qqdecorate	qqRazor_A	2	560.1609	3	2.7272	OFS	D1S	560
570.1438	4	OLD3_R_12	OLD3_R	O	3	R	word119	object30	qqsqueak	qqTape_A	2	570.1438	2	1.3501	OFS	D1S	570
580.1527	4	OLD3_R_17	OLD3_R	O	3	R	word21	object19	qqcommand	qqMegaphone_A	2	580.1527	4	1.2334	OFS	D1S	580
590.1561	4	OLD3_R_07	OLD3_R	O	3	R	word74	object15	qqkiss	qqIron_A	2	590.1561	1	1.3083	OFS	D1S	590
600.159	4	OLD3_R_04	OLD3_R	O	3	R	word33	object26	qqdecorate	qqRazor_A	2	600.159	2	1.3688	OFS	D1S	600
610.1433	4	OLD3_R_17	OLD3_R	O	3	R	word21	object19	qqcommand	qqMegaphone_A	2	610.1433	4	1.2951	OFS	D1S	610
620.1433	4	OLD3_R_01	OLD3_R	O	3	R	word25	object36	qqcrave	qqWater_Gun_A	2	620.1433	1	1.4095	OFS	D1S	620
630.1526	4	OLD3_R_14	OLD3_R	O	3	R	word91	object34	qqpinch	qqWalkie_Talkie_A	2	630.1526	1	1.1586	OFS	D1S	630
640.1562	4	OLD1_R_08	OLD1_R	O	1	R	word105	face04	qqrub	qqEmma_Watson_A	2	640.1562	1	2.6334	OFS	D1S	640
650.1584	4	OLD3_R_08	OLD3_R	O	3	R	word132	object14	qqupdate	qqiPhone_A	2	650.1584	3	2.0614	OFS	D1S	650
660.1596	4	OLD1_R_12	OLD1_R	O	1	R	word78	face33	qqmanipulate	qqMichael_Phelps_A	2	660.1596	2	2.745	OFS	D1S	660
670.1432	4	OLD3_R_11	OLD3_R	O	3	R	word126	object04	qqthrow	qqBottle_A	2	670.1432	2	2.3187	OFS	D1S	670
680.1524	4	OLD1_R_07	OLD1_R	O	1	R	word84	face35	qqnap	qqSteve_Carell_A	2	680.1524	1	2.221	OFS	D1S	680
690.1551	4	OLD3_R_13	OLD3_R	O	3	R	word65	object32	qqimitate	qqToothbrush_A	2	690.1551	1	1.5283	OFS	D1S	690
700.171	4	OLD3_R_15	OLD3_R	O	3	R	word94	object16	qqprint	qqKeys_A	2	700.171	1	1.0777	OFS	D1S	700
710.1457	4	OLD3_R_03	OLD3_R	O	3	R	word41	object06	qqdrop	qqCalculator_A	2	710.1457	1	1.1758	OFS	D1S	710
