onset	duration	trial_idx	condition	day	rep	tested	wordID	picID	word	pic	run	real_onsest	pic_rating	rating_RT	cat_group	exp_phase	rounded_onset
0.10242	4	OLD3_T_13	OLD3_T	O	3	TRUE	word76	scene29	qqlick	qqTaj_Mahal_A	1	0.10242	1	5.0875	SOF	D1S	0
10.1391	4	OLD3_T_15	OLD3_T	O	3	TRUE	word32	scene36	qqdecay	qqYankee_Stadium_A	1	10.1391	2	4.7069	SOF	D1S	10
20.1262	4	OLD3_T_09	OLD3_T	O	3	TRUE	word69	scene26	qqinspire	qqSahara_Desert_A	1	20.1262	3	4.4159	SOF	D1S	20
30.1269	4	OLD1_T_08	OLD1_T	O	1	TRUE	word144	object32	qqyodel	qqToothbrush_A	1	30.1269	1	3.6558	SOF	D1S	30
40.1165	4	OLD3_T_11	OLD3_T	O	3	TRUE	word141	scene10	qqwrestle	qqDead_Sea_A	1	40.1165	1	4.4017	SOF	D1S	40
50.1194	4	OLD3_T_13	OLD3_T	O	3	TRUE	word76	scene29	qqlick	qqTaj_Mahal_A	1	50.1194	1	3.6633	SOF	D1S	50
60.1236	4	OLD3_T_06	OLD3_T	O	3	TRUE	word06	scene08	qqaward	qqColorado_River_A	1	60.1236	4	4.3314	SOF	D1S	60
70.1261	4	OLD1_T_13	OLD1_T	O	1	TRUE	word48	object05	qqexplode	qqBucket_A	1	70.1261	3	4.3534	SOF	D1S	70
80.1276	4	OLD3_T_08	OLD3_T	O	3	TRUE	word107	scene01	qqscratch	qqAlcatraz_A	1	80.1276	2	5.7337	SOF	D1S	80
90.128	4	OLD3_T_01	OLD3_T	O	3	TRUE	word113	scene28	qqsmoke	qqStonehenge_A	1	90.128	1	4.7398	SOF	D1S	90
100.1201	4	OLD1_T_04	OLD1_T	O	1	TRUE	word03	object16	qqadopt	qqKeys_A	1	100.1201	1	6.3769	SOF	D1S	100
110.1232	4	OLD3_T_04	OLD3_T	O	3	TRUE	word11	scene03	qqbribe	qqArlington_Cemetery_A	1	110.1232	1	5.5851	SOF	D1S	110
120.1262	4	OLD1_T_16	OLD1_T	O	1	TRUE	word35	object26	qqdemonstrate	qqRazor_A	1	120.1262	4	4.2566	SOF	D1S	120
130.1294	4	OLD3_T_17	OLD3_T	O	3	TRUE	word13	scene18	qqbuy	qqHawaii_A	1	130.1294	3	6.0384	SOF	D1S	130
140.1299	4	OLD1_T_12	OLD1_T	O	1	TRUE	word22	object18	qqcomplain	qqMakeup_Brush_A	1	140.1299	3	4.0659	SOF	D1S	140
150.1299	4	OLD3_T_02	OLD3_T	O	3	TRUE	word111	scene27	qqshrink	qqSt_Louis_Arch_A	1	150.1299	2	5.0785	SOF	D1S	150
160.1226	4	OLD3_T_03	OLD3_T	O	3	TRUE	word122	scene33	qqsurround	qqUS_Supreme_Court_A	1	160.1226	3	3.9617	SOF	D1S	160
170.1262	4	OLD3_T_09	OLD3_T	O	3	TRUE	word69	scene26	qqinspire	qqSahara_Desert_A	1	170.1262	4	3.9794	SOF	D1S	170
180.1301	4	OLD3_T_10	OLD3_T	O	3	TRUE	word56	scene15	qqfreeze	qqGolden_Gate_Bridge_A	1	180.1301	2	4.955	SOF	D1S	180
190.1305	4	OLD3_T_11	OLD3_T	O	3	TRUE	word141	scene10	qqwrestle	qqDead_Sea_A	1	190.1305	1	4.1298	SOF	D1S	190
200.1313	4	OLD1_T_15	OLD1_T	O	1	TRUE	word04	object13	qqannoy	qqHandbag_A	1	200.1313	4	4.0182	SOF	D1S	200
210.1307	4	OLD3_T_06	OLD3_T	O	3	TRUE	word06	scene08	qqaward	qqColorado_River_A	1	210.1307	4	3.8573	SOF	D1S	210
220.1269	4	OLD3_T_18	OLD3_T	O	3	TRUE	word136	scene11	qqwarn	qqDisney_World_A	1	220.1269	1	4.3651	SOF	D1S	220
230.1296	4	OLD3_T_17	OLD3_T	O	3	TRUE	word13	scene18	qqbuy	qqHawaii_A	1	230.1296	3	4.0229	SOF	D1S	230
240.1322	4	OLD1_T_05	OLD1_T	O	1	TRUE	word60	object09	qqhaunt	qqFork_A	1	240.1322	3	4.6398	SOF	D1S	240
250.1329	4	OLD3_T_13	OLD3_T	O	3	TRUE	word76	scene29	qqlick	qqTaj_Mahal_A	1	250.1329	1	4.9456	SOF	D1S	250
260.1329	4	OLD3_T_14	OLD3_T	O	3	TRUE	word77	scene09	qqlocate	qqColosseum_A	1	260.1329	3	4.2784	SOF	D1S	260
270.126	4	OLD3_T_09	OLD3_T	O	3	TRUE	word69	scene26	qqinspire	qqSahara_Desert_A	1	270.126	3	3.2245	SOF	D1S	270
280.1295	4	OLD3_T_14	OLD3_T	O	3	TRUE	word77	scene09	qqlocate	qqColosseum_A	1	280.1295	3	3.1921	SOF	D1S	280
290.1337	4	OLD1_T_10	OLD1_T	O	1	TRUE	word24	object29	qqcram	qqSewing_Machine_A	1	290.1337	2	4.1438	SOF	D1S	290
300.133	4	OLD1_T_06	OLD1_T	O	1	TRUE	word05	object25	qqaudit	qqPlunger_A	1	300.133	1	3.5143	SOF	D1S	300
310.1223	4	OLD3_T_12	OLD3_T	O	3	TRUE	word121	scene17	qqsurprise	qqGreat_Wall_of_China_A	1	310.1223	2	5.6166	SOF	D1S	310
320.1345	4	OLD1_T_11	OLD1_T	O	1	TRUE	word88	object07	qqpaddle	qqCrowbar_A	1	320.1345	2	4.9627	SOF	D1S	320
330.1296	4	OLD3_T_12	OLD3_T	O	3	TRUE	word121	scene17	qqsurprise	qqGreat_Wall_of_China_A	1	330.1296	2	4.5947	SOF	D1S	330
340.1344	4	OLD3_T_10	OLD3_T	O	3	TRUE	word56	scene15	qqfreeze	qqGolden_Gate_Bridge_A	1	340.1344	2	4.5914	SOF	D1S	340
350.1348	4	OLD3_T_02	OLD3_T	O	3	TRUE	word111	scene27	qqshrink	qqSt_Louis_Arch_A	1	350.1348	2	4.5446	SOF	D1S	350
360.1354	4	OLD1_T_03	OLD1_T	O	1	TRUE	word119	object10	qqsqueak	qqFrisbee_A	1	360.1354	1	4.2185	SOF	D1S	360
370.1256	4	OLD3_T_18	OLD3_T	O	3	TRUE	word136	scene11	qqwarn	qqDisney_World_A	1	370.1256	1	3.3868	SOF	D1S	370
380.1354	4	OLD3_T_12	OLD3_T	O	3	TRUE	word121	scene17	qqsurprise	qqGreat_Wall_of_China_A	1	380.1354	2	3.1653	SOF	D1S	380
390.1322	4	OLD1_T_18	OLD1_T	O	1	TRUE	word132	object06	qqupdate	qqCalculator_A	1	390.1322	3	3.1392	SOF	D1S	390
400.1366	4	OLD3_T_05	OLD3_T	O	3	TRUE	word36	scene21	qqdiagnose	qqMadison_Square_Garden_A	1	400.1366	1	5.535	SOF	D1S	400
410.1371	4	OLD3_T_16	OLD3_T	O	3	TRUE	word142	scene02	qqyawn	qqAmazon_A	1	410.1371	2	3.6729	SOF	D1S	410
420.1371	4	OLD3_T_18	OLD3_T	O	3	TRUE	word136	scene11	qqwarn	qqDisney_World_A	1	420.1371	1	6.3202	SOF	D1S	420
430.1298	4	OLD3_T_14	OLD3_T	O	3	TRUE	word77	scene09	qqlocate	qqColosseum_A	1	430.1298	3	4.775	SOF	D1S	430
440.1492	4	OLD3_T_07	OLD3_T	O	3	TRUE	word112	scene16	qqskate	qqGreat_Pyramids_A	1	440.1492	2	6.186	SOF	D1S	440
450.1357	4	OLD3_T_16	OLD3_T	O	3	TRUE	word142	scene02	qqyawn	qqAmazon_A	1	450.1357	2	3.4856	SOF	D1S	450
460.1379	4	OLD3_T_07	OLD3_T	O	3	TRUE	word112	scene16	qqskate	qqGreat_Pyramids_A	1	460.1379	3	5.0391	SOF	D1S	460
470.1386	4	OLD3_T_03	OLD3_T	O	3	TRUE	word122	scene33	qqsurround	qqUS_Supreme_Court_A	1	470.1386	4	2.3098	SOF	D1S	470
480.1389	4	OLD3_T_16	OLD3_T	O	3	TRUE	word142	scene02	qqyawn	qqAmazon_A	1	480.1389	2	3.0263	SOF	D1S	480
490.1392	4	OLD3_T_17	OLD3_T	O	3	TRUE	word13	scene18	qqbuy	qqHawaii_A	1	490.1392	2	2.4703	SOF	D1S	490
500.1361	4	OLD3_T_11	OLD3_T	O	3	TRUE	word141	scene10	qqwrestle	qqDead_Sea_A	1	500.1361	1	2.0979	SOF	D1S	500
510.1393	4	OLD3_T_05	OLD3_T	O	3	TRUE	word36	scene21	qqdiagnose	qqMadison_Square_Garden_A	1	510.1393	1	2.4942	SOF	D1S	510
520.1399	4	OLD3_T_10	OLD3_T	O	3	TRUE	word56	scene15	qqfreeze	qqGolden_Gate_Bridge_A	1	520.1399	2	2.4079	SOF	D1S	520
530.1391	4	OLD3_T_01	OLD3_T	O	3	TRUE	word113	scene28	qqsmoke	qqStonehenge_A	1	530.1391	2	4.476	SOF	D1S	530
540.1399	4	OLD1_T_09	OLD1_T	O	1	TRUE	word137	object31	qqwhisper	qqTeapot_A	1	540.1399	1	5.1588	SOF	D1S	540
550.1364	4	OLD3_T_03	OLD3_T	O	3	TRUE	word122	scene33	qqsurround	qqUS_Supreme_Court_A	1	550.1364	4	2.5686	SOF	D1S	550
560.1391	4	OLD1_T_02	OLD1_T	O	1	TRUE	word81	object22	qqmeet	qqPaintbrush_A	1	560.1391	1	4.4372	SOF	D1S	560
570.1406	4	OLD1_T_07	OLD1_T	O	1	TRUE	word27	object03	qqcritique	qqBasketball_A	1	570.1406	3	2.9581	SOF	D1S	570
580.1412	4	OLD3_T_15	OLD3_T	O	3	TRUE	word32	scene36	qqdecay	qqYankee_Stadium_A	1	580.1412	3	3.0401	SOF	D1S	580
590.1417	4	OLD3_T_06	OLD3_T	O	3	TRUE	word06	scene08	qqaward	qqColorado_River_A	1	590.1417	3	2.1971	SOF	D1S	590
600.1412	4	OLD3_T_07	OLD3_T	O	3	TRUE	word112	scene16	qqskate	qqGreat_Pyramids_A	1	600.1412	2	2.6465	SOF	D1S	600
610.1401	4	OLD1_T_01	OLD1_T	O	1	TRUE	word124	object35	qqswipe	qqWallet_A	1	610.1401	4	2.7708	SOF	D1S	610
620.1422	4	OLD3_T_02	OLD3_T	O	3	TRUE	word111	scene27	qqshrink	qqSt_Louis_Arch_A	1	620.1422	2	2.4442	SOF	D1S	620
630.142	4	OLD3_T_08	OLD3_T	O	3	TRUE	word107	scene01	qqscratch	qqAlcatraz_A	1	630.142	1	2.3937	SOF	D1S	630
640.1429	4	OLD1_T_17	OLD1_T	O	1	TRUE	word15	object33	qqcharge	qqTraffic_Cone_A	1	640.1429	1	3.0985	SOF	D1S	640
650.1431	4	OLD3_T_15	OLD3_T	O	3	TRUE	word32	scene36	qqdecay	qqYankee_Stadium_A	1	650.1431	3	2.841	SOF	D1S	650
660.1394	4	OLD3_T_04	OLD3_T	O	3	TRUE	word11	scene03	qqbribe	qqArlington_Cemetery_A	1	660.1394	1	1.5266	SOF	D1S	660
670.1429	4	OLD3_T_05	OLD3_T	O	3	TRUE	word36	scene21	qqdiagnose	qqMadison_Square_Garden_A	1	670.1429	1	1.7325	SOF	D1S	670
680.1439	4	OLD3_T_08	OLD3_T	O	3	TRUE	word107	scene01	qqscratch	qqAlcatraz_A	1	680.1439	1	1.8964	SOF	D1S	680
690.1441	4	OLD1_T_14	OLD1_T	O	1	TRUE	word14	object14	qqcarve	qqiPhone_A	1	690.1441	1	4.1741	SOF	D1S	690
700.1443	4	OLD3_T_01	OLD3_T	O	3	TRUE	word113	scene28	qqsmoke	qqStonehenge_A	1	700.1443	2	2.8276	SOF	D1S	700
710.1439	4	OLD3_T_04	OLD3_T	O	3	TRUE	word11	scene03	qqbribe	qqArlington_Cemetery_A	1	710.1439	1	1.0732	SOF	D1S	710
