onset	duration	trial_idx	condition	day	rep	tested	wordID	picID	word	pic	run	real_onsest	pic_rating	rating_RT	cat_group	exp_phase	rounded_onset
0.019303	4	OLD3_T_15	OLD3_T	O	3	TRUE	word129	object15	qqtravel	qqIron_A	2	0.019303	4	2.7097	OFS	D1S	0
10.1232	4	OLD3_T_07	OLD3_T	O	3	TRUE	word07	object16	qqbalance	qqKeys_A	2	10.1232	4	3.3052	OFS	D1S	10
20.1247	4	OLD3_T_08	OLD3_T	O	3	TRUE	word06	object22	qqaward	qqPaintbrush_A	2	20.1247	2	2.9432	OFS	D1S	20
30.1292	4	OLD1_T_03	OLD1_T	O	1	TRUE	word119	face18	qqsqueak	qqTyra_Banks_A	2	30.1292	1	3.6585	OFS	D1S	30
40.1247	4	OLD3_T_10	OLD3_T	O	3	TRUE	word83	object25	qqmodernize	qqPlunger_A	2	40.1247	2	2.4983	OFS	D1S	40
50.1394	4	OLD3_T_09	OLD3_T	O	3	TRUE	word62	object17	qqhide	qqLighter_A	2	50.1394	4	2.4469	OFS	D1S	50
60.135	4	OLD3_T_03	OLD3_T	O	3	TRUE	word128	object24	qqtrade	qqPipe_A	2	60.135	3	2.7529	OFS	D1S	60
70.1558	4	OLD3_T_10	OLD3_T	O	3	TRUE	word83	object25	qqmodernize	qqPlunger_A	2	70.1558	2	2.3639	OFS	D1S	70
80.1256	4	OLD3_T_04	OLD3_T	O	3	TRUE	word134	object26	qqvote	qqRazor_A	2	80.1256	2	4.0142	OFS	D1S	80
90.1402	4	OLD1_T_14	OLD1_T	O	1	TRUE	word13	face03	qqbuy	qqEmma_Stone_A	2	90.1402	2	3.294	OFS	D1S	90
100.1393	4	OLD3_T_11	OLD3_T	O	3	TRUE	word88	object01	qqpaddle	qqBaseball_Bat_A	2	100.1393	1	3.6036	OFS	D1S	100
110.1236	4	OLD3_T_05	OLD3_T	O	3	TRUE	word37	object09	qqdiscover	qqFork_A	2	110.1236	1	2.481	OFS	D1S	110
120.1259	4	OLD3_T_15	OLD3_T	O	3	TRUE	word129	object15	qqtravel	qqIron_A	2	120.1259	4	1.6063	OFS	D1S	120
130.1569	4	OLD1_T_01	OLD1_T	O	1	TRUE	word80	face17	qqmarry	qqTina_Fey_A	2	130.1569	4	3.3895	OFS	D1S	130
140.1462	4	OLD3_T_02	OLD3_T	O	3	TRUE	word86	object10	qqnurture	qqFrisbee_A	2	140.1462	3	3.6473	OFS	D1S	140
150.1364	4	OLD1_T_17	OLD1_T	O	1	TRUE	word96	face13	qqpublicize	qqReese_Witherspoon_A	2	150.1364	4	2.8584	OFS	D1S	150
160.1421	4	OLD3_T_18	OLD3_T	O	3	TRUE	word42	object21	qqdye	qqMug_A	2	160.1421	1	3.1358	OFS	D1S	160
170.1566	4	OLD3_T_01	OLD3_T	O	3	TRUE	word01	object34	qqabandon	qqWalkie_Talkie_A	2	170.1566	2	4.3834	OFS	D1S	170
180.1293	4	OLD1_T_04	OLD1_T	O	1	TRUE	word107	face31	qqscratch	qqLeonardo_Dicaprio_A	2	180.1293	4	3.3086	OFS	D1S	180
190.1283	4	OLD3_T_05	OLD3_T	O	3	TRUE	word37	object09	qqdiscover	qqFork_A	2	190.1283	1	2.0917	OFS	D1S	190
200.1488	4	OLD3_T_17	OLD3_T	O	3	TRUE	word125	object05	qqterrify	qqBucket_A	2	200.1488	2	2.6669	OFS	D1S	200
210.1408	4	OLD3_T_04	OLD3_T	O	3	TRUE	word134	object26	qqvote	qqRazor_A	2	210.1408	1	3.5886	OFS	D1S	210
220.129	4	OLD1_T_02	OLD1_T	O	1	TRUE	word126	face15	qqthrow	qqSofia_Vergara_A	2	220.129	1	2.9726	OFS	D1S	220
230.1598	4	OLD1_T_15	OLD1_T	O	1	TRUE	word24	face16	qqcram	qqTaylor_Swift_A	2	230.1598	1	3.098	OFS	D1S	230
240.1599	4	OLD1_T_08	OLD1_T	O	1	TRUE	word21	face29	qqcommand	qqJon_Stewart_A	2	240.1599	1	5.1046	OFS	D1S	240
250.1492	4	OLD3_T_18	OLD3_T	O	3	TRUE	word42	object21	qqdye	qqMug_A	2	250.1492	2	3.4974	OFS	D1S	250
260.1304	4	OLD1_T_09	OLD1_T	O	1	TRUE	word124	face02	qqswipe	qqBeyonce_A	2	260.1304	4	3.643	OFS	D1S	260
270.1432	4	OLD3_T_06	OLD3_T	O	3	TRUE	word102	object04	qqrepel	qqBottle_A	2	270.1432	4	2.2126	OFS	D1S	270
280.1593	4	OLD3_T_16	OLD3_T	O	3	TRUE	word103	object19	qqrescue	qqMegaphone_A	2	280.1593	4	2.8985	OFS	D1S	280
290.1315	4	OLD3_T_14	OLD3_T	O	3	TRUE	word22	object32	qqcomplain	qqToothbrush_A	2	290.1315	1	3.4815	OFS	D1S	290
300.1321	4	OLD3_T_01	OLD3_T	O	3	TRUE	word01	object34	qqabandon	qqWalkie_Talkie_A	2	300.1321	3	2.7925	OFS	D1S	300
310.1529	4	OLD1_T_18	OLD1_T	O	1	TRUE	word16	face14	qqchase	qqSarah_Palin_A	2	310.1529	1	2.2237	OFS	D1S	310
320.1426	4	OLD1_T_12	OLD1_T	O	1	TRUE	word82	face36	qqmelt	qqTom_Hanks_A	2	320.1426	1	2.3329	OFS	D1S	320
330.1596	4	OLD3_T_01	OLD3_T	O	3	TRUE	word01	object34	qqabandon	qqWalkie_Talkie_A	2	330.1596	1	3.1043	OFS	D1S	330
340.1627	4	OLD3_T_08	OLD3_T	O	3	TRUE	word06	object22	qqaward	qqPaintbrush_A	2	340.1627	1	3.2702	OFS	D1S	340
350.1334	4	OLD3_T_13	OLD3_T	O	3	TRUE	word18	object35	qqchill	qqWallet_A	2	350.1334	4	4.1212	OFS	D1S	350
360.1506	4	OLD1_T_07	OLD1_T	O	1	TRUE	word90	face09	qqpay	qqMadonna_A	2	360.1506	4	2.7513	OFS	D1S	360
370.1436	4	OLD3_T_09	OLD3_T	O	3	TRUE	word62	object17	qqhide	qqLighter_A	2	370.1436	4	3.3077	OFS	D1S	370
380.1471	4	OLD3_T_15	OLD3_T	O	3	TRUE	word129	object15	qqtravel	qqIron_A	2	380.1471	4	2.0459	OFS	D1S	380
390.1638	4	OLD3_T_12	OLD3_T	O	3	TRUE	word98	object13	qqquieted	qqHandbag_A	2	390.1638	2	3.0253	OFS	D1S	390
400.1641	4	OLD3_T_14	OLD3_T	O	3	TRUE	word22	object32	qqcomplain	qqToothbrush_A	2	400.1641	1	2.1398	OFS	D1S	400
410.1518	4	OLD3_T_13	OLD3_T	O	3	TRUE	word18	object35	qqchill	qqWallet_A	2	410.1518	4	2.4621	OFS	D1S	410
420.1427	4	OLD3_T_17	OLD3_T	O	3	TRUE	word125	object05	qqterrify	qqBucket_A	2	420.1427	2	2.7923	OFS	D1S	420
430.1479	4	OLD3_T_04	OLD3_T	O	3	TRUE	word134	object26	qqvote	qqRazor_A	2	430.1479	1	3.38	OFS	D1S	430
440.1628	4	OLD3_T_11	OLD3_T	O	3	TRUE	word88	object01	qqpaddle	qqBaseball_Bat_A	2	440.1628	2	3.9773	OFS	D1S	440
450.1363	4	OLD3_T_07	OLD3_T	O	3	TRUE	word07	object16	qqbalance	qqKeys_A	2	450.1363	2	2.9307	OFS	D1S	450
460.1405	4	OLD3_T_09	OLD3_T	O	3	TRUE	word62	object17	qqhide	qqLighter_A	2	460.1405	4	1.5666	OFS	D1S	460
470.1434	4	OLD3_T_02	OLD3_T	O	3	TRUE	word86	object10	qqnurture	qqFrisbee_A	2	470.1434	3	3.3259	OFS	D1S	470
480.1463	4	OLD1_T_13	OLD1_T	O	1	TRUE	word09	face01	qqbleach	qqAdele_A	2	480.1463	4	2.5993	OFS	D1S	480
490.1628	4	OLD1_T_11	OLD1_T	O	1	TRUE	word17	face10	qqcheat	qqMiley_Cyrus_A	2	490.1628	4	2.0431	OFS	D1S	490
500.1657	4	OLD3_T_16	OLD3_T	O	3	TRUE	word103	object19	qqrescue	qqMegaphone_A	2	500.1657	4	1.8527	OFS	D1S	500
510.1577	4	OLD3_T_12	OLD3_T	O	3	TRUE	word98	object13	qqquieted	qqHandbag_A	2	510.1577	1	2.8178	OFS	D1S	510
520.1604	4	OLD3_T_03	OLD3_T	O	3	TRUE	word128	object24	qqtrade	qqPipe_A	2	520.1604	2	3.314	OFS	D1S	520
530.1462	4	OLD3_T_18	OLD3_T	O	3	TRUE	word42	object21	qqdye	qqMug_A	2	530.1462	1	2.9117	OFS	D1S	530
540.1508	4	OLD3_T_05	OLD3_T	O	3	TRUE	word37	object09	qqdiscover	qqFork_A	2	540.1508	1	2.9745	OFS	D1S	540
550.1536	4	OLD3_T_14	OLD3_T	O	3	TRUE	word22	object32	qqcomplain	qqToothbrush_A	2	550.1536	1	2.0546	OFS	D1S	550
560.139	4	OLD3_T_17	OLD3_T	O	3	TRUE	word125	object05	qqterrify	qqBucket_A	2	560.139	2	1.9666	OFS	D1S	560
570.1569	4	OLD1_T_10	OLD1_T	O	1	TRUE	word69	face07	qqinspire	qqKeira_Knightly_A	2	570.1569	4	2.9448	OFS	D1S	570
580.1392	4	OLD3_T_06	OLD3_T	O	3	TRUE	word102	object04	qqrepel	qqBottle_A	2	580.1392	4	1.5271	OFS	D1S	580
590.1504	4	OLD1_T_05	OLD1_T	O	1	TRUE	word89	face04	qqpaint	qqEmma_Watson_A	2	590.1504	4	2.5279	OFS	D1S	590
600.1537	4	OLD1_T_16	OLD1_T	O	1	TRUE	word117	face32	qqspray	qqMatt_Damon_A	2	600.1537	1	3.2768	OFS	D1S	600
610.1566	4	OLD3_T_12	OLD3_T	O	3	TRUE	word98	object13	qqquieted	qqHandbag_A	2	610.1566	1	1.4913	OFS	D1S	610
620.1569	4	OLD3_T_10	OLD3_T	O	3	TRUE	word83	object25	qqmodernize	qqPlunger_A	2	620.1569	2	2.7605	OFS	D1S	620
630.1458	4	OLD3_T_13	OLD3_T	O	3	TRUE	word18	object35	qqchill	qqWallet_A	2	630.1458	4	1.6165	OFS	D1S	630
640.1503	4	OLD3_T_06	OLD3_T	O	3	TRUE	word102	object04	qqrepel	qqBottle_A	2	640.1503	4	1.3592	OFS	D1S	640
650.1407	4	OLD3_T_02	OLD3_T	O	3	TRUE	word86	object10	qqnurture	qqFrisbee_A	2	650.1407	3	2.0822	OFS	D1S	650
660.1565	4	OLD1_T_06	OLD1_T	O	1	TRUE	word11	face35	qqbribe	qqSteve_Carell_A	2	660.1565	1	2.7851	OFS	D1S	660
670.1599	4	OLD3_T_03	OLD3_T	O	3	TRUE	word128	object24	qqtrade	qqPipe_A	2	670.1599	2	2.5818	OFS	D1S	670
680.1585	4	OLD3_T_11	OLD3_T	O	3	TRUE	word88	object01	qqpaddle	qqBaseball_Bat_A	2	680.1585	1	2.919	OFS	D1S	680
690.1587	4	OLD3_T_07	OLD3_T	O	3	TRUE	word07	object16	qqbalance	qqKeys_A	2	690.1587	2	1.9806	OFS	D1S	690
700.1534	4	OLD3_T_16	OLD3_T	O	3	TRUE	word103	object19	qqrescue	qqMegaphone_A	2	700.1534	4	1.7993	OFS	D1S	700
710.1561	4	OLD3_T_08	OLD3_T	O	3	TRUE	word06	object22	qqaward	qqPaintbrush_A	2	710.1561	1	1.6188	OFS	D1S	710
